# Quinten Vanhellemont 2022-12-15 from Landsat3MSS_Ba\ndAverageRSR.xls
# https://landsat.gsfc.nasa.gov
#
#  Landsat 3 MSS Band 4
#
#  Wavelength
#   (microns)	Reflectance
#
0.447	0.000
0.448	0.000
0.449	0.009
0.450	0.005
0.451	0.005
0.452	0.005
0.453	0.006
0.454	0.006
0.455	0.006
0.456	0.006
0.457	0.004
0.458	0.004
0.459	0.004
0.460	0.004
0.461	0.004
0.462	0.006
0.463	0.007
0.464	0.008
0.465	0.010
0.466	0.008
0.467	0.008
0.468	0.010
0.469	0.012
0.470	0.014
0.471	0.016
0.472	0.019
0.473	0.021
0.474	0.023
0.475	0.026
0.476	0.028
0.477	0.033
0.478	0.038
0.479	0.045
0.480	0.054
0.481	0.064
0.482	0.081
0.483	0.101
0.484	0.127
0.485	0.168
0.486	0.202
0.487	0.252
0.488	0.295
0.489	0.317
0.490	0.361
0.491	0.387
0.492	0.419
0.493	0.447
0.494	0.470
0.495	0.498
0.496	0.520
0.497	0.542
0.498	0.570
0.499	0.595
0.500	0.627
0.501	0.647
0.502	0.674
0.503	0.695
0.504	0.713
0.505	0.730
0.506	0.747
0.507	0.766
0.508	0.783
0.509	0.802
0.510	0.818
0.511	0.830
0.512	0.843
0.513	0.855
0.514	0.866
0.515	0.873
0.516	0.882
0.517	0.890
0.518	0.899
0.519	0.907
0.520	0.914
0.521	0.921
0.522	0.926
0.523	0.934
0.524	0.938
0.525	0.943
0.526	0.949
0.527	0.953
0.528	0.956
0.529	0.957
0.530	0.960
0.531	0.961
0.532	0.962
0.533	0.962
0.534	0.962
0.535	0.961
0.536	0.961
0.537	0.961
0.538	0.961
0.539	0.961
0.540	0.964
0.541	0.966
0.542	0.970
0.543	0.974
0.544	0.978
0.545	0.984
0.546	0.990
0.547	0.994
0.548	0.996
0.549	0.999
0.550	1.000
0.551	1.000
0.552	1.000
0.553	1.000
0.554	0.999
0.555	0.998
0.556	0.996
0.557	0.994
0.558	0.992
0.559	0.989
0.560	0.987
0.561	0.987
0.562	0.986
0.563	0.987
0.564	0.989
0.565	0.991
0.566	0.993
0.567	0.994
0.568	0.995
0.569	0.995
0.570	0.995
0.571	0.994
0.572	0.994
0.573	0.993
0.574	0.991
0.575	0.985
0.576	0.977
0.577	0.969
0.578	0.959
0.579	0.943
0.580	0.928
0.581	0.909
0.582	0.879
0.583	0.850
0.584	0.825
0.585	0.790
0.586	0.760
0.587	0.726
0.588	0.687
0.589	0.652
0.590	0.611
0.591	0.572
0.592	0.525
0.593	0.483
0.594	0.445
0.595	0.396
0.596	0.351
0.597	0.307
0.598	0.271
0.599	0.228
0.600	0.201
0.601	0.157
0.602	0.137
0.603	0.124
0.604	0.112
0.605	0.100
0.606	0.092
0.607	0.084
0.608	0.079
0.609	0.071
0.610	0.067
0.611	0.060
0.612	0.056
0.613	0.054
0.614	0.052
0.615	0.048
0.616	0.045
0.617	0.042
0.618	0.040
0.619	0.038
0.620	0.037
0.621	0.035
0.622	0.033
0.623	0.031
0.624	0.028
0.625	0.027
0.626	0.026
0.627	0.024
0.628	0.024
0.629	0.023
0.630	0.022
0.631	0.021
0.632	0.020
0.633	0.018
0.634	0.017
0.635	0.014
0.636	0.016
0.637	0.015
0.638	0.012
0.639	0.010
0.640	0.009
0.641	0.011
0.642	0.010
0.643	0.010
0.644	0.010
0.645	0.010
0.646	0.013
0.647	0.013
0.648	0.008
0.649	0.006
0.650	0.009
0.651	0.008
0.652	0.012
0.653	0.003
0.654	0.000
0.655	0.000
#
#  Landsat 3 MSS Band 5
#
#  Wavelength
#   (microns)	Reflectance
#
0.548	0.000
0.549	0.000
0.550	0.000
0.551	0.000
0.552	0.000
0.553	0.000
0.554	0.001
0.555	0.002
0.556	0.002
0.557	0.004
0.558	0.005
0.559	0.005
0.560	0.006
0.561	0.006
0.562	0.006
0.563	0.006
0.564	0.006
0.565	0.007
0.566	0.006
0.567	0.006
0.568	0.007
0.569	0.006
0.570	0.006
0.571	0.006
0.572	0.006
0.573	0.006
0.574	0.007
0.575	0.007
0.576	0.007
0.577	0.007
0.578	0.007
0.579	0.008
0.580	0.009
0.581	0.009
0.582	0.009
0.583	0.010
0.584	0.011
0.585	0.011
0.586	0.013
0.587	0.016
0.588	0.018
0.589	0.021
0.590	0.024
0.591	0.028
0.592	0.036
0.593	0.045
0.594	0.057
0.595	0.069
0.596	0.085
0.597	0.159
0.598	0.184
0.599	0.284
0.600	0.380
0.601	0.426
0.602	0.477
0.603	0.521
0.604	0.544
0.605	0.584
0.606	0.622
0.607	0.642
0.608	0.674
0.609	0.694
0.610	0.714
0.611	0.739
0.612	0.754
0.613	0.774
0.614	0.799
0.615	0.818
0.616	0.832
0.617	0.848
0.618	0.868
0.619	0.880
0.620	0.888
0.621	0.902
0.622	0.913
0.623	0.920
0.624	0.928
0.625	0.933
0.626	0.939
0.627	0.949
0.628	0.956
0.629	0.961
0.630	0.967
0.631	0.972
0.632	0.977
0.633	0.984
0.634	0.988
0.635	0.991
0.636	0.994
0.637	0.998
0.638	0.998
0.639	0.999
0.640	0.998
0.641	0.999
0.642	0.999
0.643	1.000
0.644	1.000
0.645	0.999
0.646	0.998
0.647	0.996
0.648	0.995
0.649	0.994
0.650	0.993
0.651	0.991
0.652	0.989
0.653	0.987
0.654	0.986
0.655	0.983
0.656	0.983
0.657	0.982
0.658	0.982
0.659	0.982
0.660	0.979
0.661	0.975
0.662	0.973
0.663	0.970
0.664	0.967
0.665	0.964
0.666	0.959
0.667	0.956
0.668	0.953
0.669	0.951
0.670	0.948
0.671	0.945
0.672	0.943
0.673	0.942
0.674	0.940
0.675	0.939
0.676	0.939
0.677	0.938
0.678	0.939
0.679	0.940
0.680	0.942
0.681	0.944
0.682	0.944
0.683	0.946
0.684	0.947
0.685	0.949
0.686	0.951
0.687	0.953
0.688	0.953
0.689	0.951
0.690	0.947
0.691	0.940
0.692	0.928
0.693	0.923
0.694	0.906
0.695	0.888
0.696	0.861
0.697	0.842
0.698	0.790
0.699	0.718
0.700	0.677
0.701	0.652
0.702	0.613
0.703	0.572
0.704	0.533
0.705	0.477
0.706	0.427
0.707	0.373
0.708	0.350
0.709	0.313
0.710	0.283
0.711	0.231
0.712	0.201
0.713	0.173
0.714	0.139
0.715	0.101
0.716	0.075
0.717	0.047
0.718	0.034
0.719	0.027
0.720	0.025
0.721	0.026
0.722	0.028
0.723	0.031
0.724	0.036
0.725	0.041
0.726	0.045
0.727	0.052
0.728	0.056
0.729	0.059
0.730	0.060
0.731	0.061
0.732	0.061
0.733	0.059
0.734	0.057
0.735	0.053
0.736	0.049
0.737	0.046
0.738	0.043
0.739	0.040
0.740	0.038
0.741	0.036
0.742	0.033
0.743	0.031
0.744	0.029
0.745	0.027
0.746	0.026
0.747	0.025
0.748	0.023
0.749	0.019
0.750	0.017
0.751	0.012
0.752	0.006
0.753	0.000
0.754	0.000
#
#  Landsat 3 MSS Band 6
#
#  Wavelength
#   (microns)	Reflectance
#
0.652	0.000
0.653	0.003
0.654	0.005
0.655	0.006
0.656	0.006
0.657	0.005
0.658	0.006
0.659	0.008
0.660	0.009
0.661	0.011
0.662	0.013
0.663	0.015
0.664	0.017
0.665	0.018
0.666	0.021
0.667	0.023
0.668	0.027
0.669	0.031
0.670	0.037
0.671	0.044
0.672	0.041
0.673	0.050
0.674	0.062
0.675	0.076
0.676	0.089
0.677	0.100
0.678	0.113
0.679	0.127
0.680	0.145
0.681	0.162
0.682	0.180
0.683	0.203
0.684	0.223
0.685	0.250
0.686	0.270
0.687	0.308
0.688	0.355
0.689	0.387
0.690	0.413
0.691	0.448
0.692	0.488
0.693	0.515
0.694	0.553
0.695	0.587
0.696	0.619
0.697	0.645
0.698	0.669
0.699	0.698
0.700	0.723
0.701	0.751
0.702	0.779
0.703	0.798
0.704	0.822
0.705	0.853
0.706	0.876
0.707	0.891
0.708	0.904
0.709	0.921
0.710	0.935
0.711	0.948
0.712	0.960
0.713	0.970
0.714	0.978
0.715	0.984
0.716	0.989
0.717	0.992
0.718	0.994
0.719	0.995
0.720	0.997
0.721	0.998
0.722	0.998
0.723	0.999
0.724	0.999
0.725	0.999
0.726	1.000
0.727	1.000
0.728	0.999
0.729	0.999
0.730	0.998
0.731	0.995
0.732	0.993
0.733	0.990
0.734	0.988
0.735	0.984
0.736	0.979
0.737	0.975
0.738	0.970
0.739	0.967
0.740	0.963
0.741	0.957
0.742	0.953
0.743	0.948
0.744	0.942
0.745	0.938
0.746	0.932
0.747	0.927
0.748	0.923
0.749	0.916
0.750	0.912
0.751	0.908
0.752	0.903
0.753	0.898
0.754	0.896
0.755	0.893
0.756	0.890
0.757	0.888
0.758	0.888
0.759	0.887
0.760	0.887
0.761	0.886
0.762	0.886
0.763	0.887
0.764	0.887
0.765	0.888
0.766	0.887
0.767	0.887
0.768	0.887
0.769	0.888
0.770	0.887
0.771	0.888
0.772	0.886
0.773	0.885
0.774	0.884
0.775	0.881
0.776	0.879
0.777	0.876
0.778	0.870
0.779	0.866
0.780	0.858
0.781	0.851
0.782	0.839
0.783	0.820
0.784	0.798
0.785	0.767
0.786	0.743
0.787	0.719
0.788	0.684
0.789	0.648
0.790	0.621
0.791	0.590
0.792	0.551
0.793	0.515
0.794	0.472
0.795	0.434
0.796	0.396
0.797	0.372
0.798	0.330
0.799	0.303
0.800	0.285
0.801	0.266
0.802	0.240
0.803	0.222
0.804	0.208
0.805	0.188
0.806	0.170
0.807	0.155
0.808	0.143
0.809	0.133
0.810	0.123
0.811	0.112
0.812	0.103
0.813	0.096
0.814	0.090
0.815	0.083
0.816	0.079
0.817	0.074
0.818	0.071
0.819	0.068
0.820	0.064
0.821	0.061
0.822	0.057
0.823	0.053
0.824	0.049
0.825	0.046
0.826	0.044
0.827	0.041
0.828	0.039
0.829	0.037
0.830	0.035
0.831	0.033
0.832	0.033
0.833	0.031
0.834	0.030
0.835	0.028
0.836	0.025
0.837	0.022
0.838	0.021
0.839	0.020
0.840	0.018
0.841	0.017
0.842	0.015
0.843	0.014
0.844	0.012
0.845	0.005
0.846	0.004
0.847	0.003
0.848	0.001
0.849	0.002
0.850	0.001
0.851	0.000
0.852	0.000
#
#  Landsat 3 MSS Band 7
#
#  Wavelength
#   (microns)	Reflectance
#
0.786	0.000
0.787	0.000
0.788	0.000
0.789	0.000
0.790	0.001
0.791	0.001
0.792	0.002
0.793	0.003
0.794	0.005
0.795	0.005
0.796	0.007
0.797	0.011
0.798	0.014
0.799	0.019
0.800	0.026
0.801	0.073
0.802	0.106
0.803	0.139
0.804	0.173
0.805	0.189
0.806	0.257
0.807	0.299
0.808	0.348
0.809	0.364
0.810	0.384
0.811	0.422
0.812	0.483
0.813	0.515
0.814	0.546
0.815	0.591
0.816	0.612
0.817	0.636
0.818	0.667
0.819	0.708
0.820	0.726
0.821	0.759
0.822	0.796
0.823	0.820
0.824	0.854
0.825	0.872
0.826	0.893
0.827	0.893
0.828	0.916
0.829	0.928
0.830	0.933
0.831	0.937
0.832	0.939
0.833	0.942
0.834	0.943
0.835	0.944
0.836	0.946
0.837	0.947
0.838	0.949
0.839	0.950
0.840	0.951
0.841	0.952
0.842	0.953
0.843	0.953
0.844	0.956
0.845	0.957
0.846	0.958
0.847	0.959
0.848	0.960
0.849	0.961
0.850	0.964
0.851	0.966
0.852	0.970
0.853	0.973
0.854	0.974
0.855	0.977
0.856	0.980
0.857	0.983
0.858	0.986
0.859	0.989
0.860	0.992
0.861	0.995
0.862	0.996
0.863	0.997
0.864	0.999
0.865	1.000
0.866	1.000
0.867	1.000
0.868	0.999
0.869	0.998
0.870	0.997
0.871	0.995
0.872	0.994
0.873	0.992
0.874	0.990
0.875	0.986
0.876	0.985
0.877	0.982
0.878	0.978
0.879	0.974
0.880	0.970
0.881	0.968
0.882	0.964
0.883	0.962
0.884	0.960
0.885	0.959
0.886	0.958
0.887	0.958
0.888	0.956
0.889	0.954
0.890	0.954
0.891	0.954
0.892	0.953
0.893	0.953
0.894	0.951
0.895	0.950
0.896	0.949
0.897	0.948
0.898	0.949
0.899	0.949
0.900	0.949
0.901	0.947
0.902	0.945
0.903	0.944
0.904	0.943
0.905	0.942
0.906	0.941
0.907	0.940
0.908	0.937
0.909	0.935
0.910	0.933
0.911	0.930
0.912	0.927
0.913	0.926
0.914	0.924
0.915	0.921
0.916	0.918
0.917	0.914
0.918	0.911
0.919	0.909
0.920	0.906
0.921	0.903
0.922	0.899
0.923	0.894
0.924	0.888
0.925	0.882
0.926	0.878
0.927	0.873
0.928	0.867
0.929	0.861
0.930	0.856
0.931	0.851
0.932	0.847
0.933	0.840
0.934	0.834
0.935	0.829
0.936	0.824
0.937	0.818
0.938	0.813
0.939	0.809
0.940	0.802
0.941	0.797
0.942	0.786
0.943	0.780
0.944	0.774
0.945	0.765
0.946	0.759
0.947	0.752
0.948	0.743
0.949	0.734
0.950	0.728
0.951	0.721
0.952	0.716
0.953	0.709
0.954	0.700
0.955	0.690
0.956	0.683
0.957	0.676
0.958	0.669
0.959	0.658
0.960	0.653
0.961	0.646
0.962	0.637
0.963	0.630
0.964	0.624
0.965	0.618
0.966	0.610
0.967	0.601
0.968	0.592
0.969	0.585
0.970	0.580
0.971	0.573
0.972	0.564
0.973	0.557
0.974	0.549
0.975	0.544
0.976	0.536
0.977	0.529
0.978	0.520
0.979	0.519
0.980	0.506
0.981	0.498
0.982	0.491
0.983	0.488
0.984	0.482
0.985	0.474
0.986	0.465
0.987	0.457
0.988	0.451
0.989	0.445
0.990	0.440
0.991	0.432
0.992	0.425
0.993	0.420
0.994	0.414
0.995	0.409
0.996	0.403
0.997	0.397
0.998	0.391
0.999	0.385
1.000	0.378
1.001	0.372
1.002	0.362
1.003	0.356
1.004	0.352
1.005	0.347
1.006	0.339
1.007	0.331
1.008	0.324
1.009	0.317
1.010	0.312
1.011	0.307
1.012	0.301
1.013	0.294
1.014	0.289
1.015	0.284
1.016	0.279
1.017	0.273
1.018	0.267
1.019	0.259
1.020	0.255
1.021	0.250
1.022	0.246
1.023	0.238
1.024	0.231
1.025	0.226
1.026	0.220
1.027	0.218
1.028	0.214
1.029	0.208
1.030	0.203
1.031	0.199
1.032	0.193
1.033	0.189
1.034	0.186
1.035	0.178
1.036	0.175
1.037	0.171
1.038	0.168
1.039	0.165
1.040	0.160
1.041	0.157
1.042	0.154
1.043	0.151
1.044	0.147
1.045	0.142
1.046	0.137
1.047	0.137
1.048	0.133
1.049	0.129
1.050	0.127
1.051	0.124
1.052	0.121
1.053	0.118
1.054	0.115
1.055	0.112
1.056	0.110
1.057	0.107
1.058	0.105
1.059	0.104
1.060	0.101
1.061	0.099
1.062	0.097
1.063	0.094
1.064	0.093
1.065	0.091
1.066	0.089
1.067	0.087
1.068	0.085
1.069	0.083
1.070	0.081
1.071	0.079
1.072	0.076
1.073	0.075
1.074	0.073
1.075	0.071
1.076	0.068
1.077	0.064
1.078	0.063
1.079	0.061
1.080	0.060
1.081	0.059
1.082	0.057
1.083	0.055
1.084	0.054
1.085	0.052
1.086	0.051
1.087	0.050
1.088	0.049
1.089	0.046
1.090	0.044
1.091	0.042
1.092	0.040
1.093	0.038
1.094	0.036
1.095	0.035
1.096	0.034
1.097	0.033
1.098	0.031
1.099	0.030
1.100	0.028
1.101	0.026
1.102	0.024
1.103	0.023
1.104	0.021
1.105	0.020
1.106	0.020
1.107	0.019
1.108	0.018
1.109	0.017
1.110	0.016
1.111	0.015
1.112	0.014
1.113	0.013
1.114	0.012
1.115	0.011
1.116	0.010
1.117	0.008
1.118	0.007
1.119	0.006
1.120	0.006
1.121	0.006
1.122	0.005
1.123	0.004
1.124	0.004
1.125	0.003
1.126	0.003
1.127	0.003
1.128	0.002
1.129	0.002
1.130	0.002
1.131	0.002
1.132	0.002
1.133	0.002
1.134	0.002
1.135	0.002
1.136	0.002
1.137	0.002
1.138	0.002
1.139	0.002
1.140	0.002
1.141	0.002
1.142	0.001
1.143	0.001
1.144	0.001
1.145	0.001
1.146	0.001
1.147	0.001
1.148	0.001
1.149	0.001
1.150	0.001
1.151	0.001
1.152	0.001
1.153	0.001
1.154	0.001
1.155	0.001
1.156	0.001
1.157	0.001
1.158	0.001
1.159	0.001
1.160	0.001
1.161	0.001
1.162	0.001
1.163	0.001
1.164	0.001
1.165	0.001
1.166	0.000
1.167	0.000
1.168	0.000
1.169	0.000
1.170	0.000